##TITLE=Column 1
##JCAMP-DX=4.24
##DATA TYPE=INFRARED SPECTRUM
##Method:,Column 1,Built-In Reference,,,Model Name,NIR-X-XX
##Host Date-Time:,27/10/20 @ 15:0:40,9/7/19 @ 16:39:9,,,GUI Version,2.4.4
##Header Version:,1,1,,,Tiva Version,2.1.0.67
##System Temp (C):,49.42,27.52,,,DLPC Version,2.0.0
##Detector Temp (C),0,0,,,UUID,DE:67:0C:88:67:19:47:21
##Humidity (%):,14.33,73.2,,,Main Board Version,D
##Lamp PD:,2671,2274
##Shift Vector Coefficients:,-6.85384978732833,0.0551332794684546,-0.000110731550088635
##Pixel to Wavelength Coefficients:,1790.66412099084,-0.917492857141292,-0.000239200785115314
##Serial Number:,925R021,925R021
##Scan Config Name:,Column 1,SystemTest
##Scan Config Type:,Column,Column
##Start wavelength (nm):,900,900
##End wavelength (nm):,1700,1700
##Pattern Pixel Width (nm):,7.03,7.03
##Exposure (ms):,0.635,0.635
##Digital Resolution:,228,228
##NPOINTS=228
##Num Repeats:,6,30
##PGA Gain:,64,64
##Total Measurement Time in sec:,1.8071569
##XUNITS=Wavelength(nm)
##YUNITS=Intensity
##FIRSTX=901.630473432251
##LASTX=1700.8619821734
##PEAK TABLE=X+(Y..Y)
901.630473432251,26427
905.531115772228,28750
909.427452498074,31019
913.319483609787,33474
917.207209107368,37253
921.090628990817,41103
924.969743260134,46214
930.13519799724,53911
934.004265833582,60489
937.869028055792,67319
941.72948466387,72763
945.585635657816,77888
949.43748103763,82763
953.285020803312,87216
957.128254954862,91553
960.967183492279,95613
966.07905725352,100250
969.907939357962,104308
973.732515848273,107866
977.552786724452,110902
981.368751986498,113793
985.180411634413,116603
988.987765668195,118982
992.790814087846,121398
996.589556893364,122666
1001.64784967874,125114
1005.43654605128,125760
1009.22093680969,127147
1013.00102195397,127513
1016.77680148412,127809
1020.54827540013,128118
1024.31544370202,127970
1028.07830638977,127690
1031.83686346339,127407
1036.8415752729,127034
1040.59008591354,126707
1044.33429094005,125131
1048.07419035243,125006
1051.80978415068,124256
1055.5410723348,123015
1059.26805490478,122660
1062.99073186063,122449
1066.70910320235,121582
1071.66023403599,121480
1075.36855894474,121104
1079.07257823935,121251
1082.77229191983,121313
1086.46769998618,121417
1090.1588024384,121707
1093.84559927648,122131
1097.52809050043,122745
1101.20627611025,123177
1106.10382596803,124087
1109.77196514487,125340
1113.43579870759,125586
1117.09532665617,126303
1120.75054899062,126579
1124.40146571093,127268
1128.04807681712,127981
1131.69038230917,129127
1135.32838218709,130543
1140.172351069,132260
1143.80030451395,133584
1147.42395234476,135313
1151.04329456145,136545
1154.658331164,137738
1158.26906215241,139148
1161.8754875267,140384
1165.47760728685,142120
1169.07542143287,143622
1173.86580933892,145807
1177.45357705197,147987
1181.03703915088,149986
1184.61619563566,152090
1188.19104650631,154701
1191.76159176283,157033
1195.32783140522,159512
1198.88976543347,162303
1202.44739384759,164774
1207.18420077777,168805
1210.73178275892,171034
1214.27505912594,174103
1217.81402987882,176778
1221.34869501757,179710
1224.87905454219,182136
1228.40510845267,185021
1231.92685674903,187165
1235.44429943125,190032
1240.12752538557,193395
1243.63492163481,195551
1247.13801226993,197090
1250.63679729091,199579
1254.13127669776,201080
1257.62145049048,203769
1261.10731866907,207330
1264.58888123353,210572
1268.06613818385,213418
1272.6957831623,217108
1276.16299367965,219921
1279.62589858286,222088
1283.08449787195,224602
1286.5387915469,226212
1289.98877960772,227766
1293.43446205441,229440
1296.87583888696,231162
1300.31291010539,231951
1304.88897410797,233222
1308.31599889342,233916
1311.73871806474,234828
1315.15713162192,235123
1318.57123956497,235487
1321.98104189389,235676
1325.38653860868,235698
1328.78772970934,236355
1332.18461519586,235641
1336.70709822258,235518
1340.09393727613,235545
1343.47647071555,234661
1346.85469854083,233755
1350.22862075199,232660
1353.59823734901,231358
1356.9635483319,229930
1360.32455370065,229217
1363.68125345528,228082
1368.15015550613,226745
1371.49680882778,225570
1374.8391565353,223929
1378.17719862868,222216
1381.51093510794,219266
1384.84036597306,217080
1388.16549122405,215426
1391.48631086091,213569
1394.80282488363,212201
1399.21814595862,210714
1402.52461354837,210335
1405.82677552399,209912
1409.12463188548,209433
1412.41818263283,208997
1415.70742776605,208988
1418.99236728514,208988
1422.2730011901,209316
1425.54932948093,209814
1429.91106958005,209993
1433.1773514379,210371
1436.43932768162,210321
1439.6969983112,210835
1442.95036332666,211195
1446.19942272798,211214
1449.44417651517,211297
1452.68462468823,211148
1456.99852463033,210847
1460.22892637041,210644
1463.45502249637,209602
1466.67681300819,209135
1469.89429790587,208962
1473.10747718943,208083
1476.31635085885,207584
1479.52091891415,206715
1482.72118135531,206091
1486.98150032154,204562
1490.17171632972,203842
1493.35762672377,202377
1496.53923150369,201735
1499.71653066948,200367
1502.88952422114,199087
1506.05821215866,197987
1509.22259448206,196809
1512.38267119132,195160
1516.58940918168,193398
1519.73943945797,192065
1522.88516412012,190862
1526.02658316814,188875
1529.16369660203,187471
1532.29650442179,185705
1535.42500662741,183974
1538.54920321891,182584
1541.66909419627,180827
1545.82225121076,178350
1548.93209575515,176495
1552.0376346854,174299
1555.13886800153,172449
1558.23579570352,170450
1561.32841779137,168491
1564.4167342651,166660
1567.50074512469,164447
1570.58045037016,161997
1574.68002640879,158836
1577.74968522127,156289
1580.81503841963,153980
1583.87608600385,151414
1586.93282797394,148768
1589.9852643299,146252
1593.03339507173,143668
1596.07722019942,141382
1599.11673971298,138465
1603.16273477575,135197
1606.19220785634,132599
1609.21737532279,129713
1612.23823717512,126971
1615.25479341331,124432
1618.26704403737,121857
1621.27498904729,119506
1624.27862844309,116105
1627.27796222475,113613
1631.27037631165,109737
1634.25966366034,106424
1637.2446453949,102452
1640.22532151532,98781
1643.20169202161,94841
1646.17375691377,90782
1649.1415161918,86418
1652.10496985569,82368
1655.06411790546,78522
1659.00295101649,74822
1661.95205263328,72515
1664.89684863594,71755
1667.83733902446,70210
1670.77352379886,69118
1673.70540295912,66988
1676.63297650524,64477
1679.55624443724,61398
1682.4752067551,57178
1686.36045889027,51538
1689.26937477516,46812
1692.17398504592,41763
1695.07428970255,36257
1697.97028874504,31164
1700.8619821734,26779
##END=
